Folder: Hello-world

Note: README.md
# Hello-world
## hello I am Lilian

File: Elastomer_G25_10,1 2.txt
wavenumbers   absorbance
399.371  	47.6936
412.301  	62.6377
425.23  	70.436
438.159  	71.6619
451.089  	73.7764
464.018  	76.3173
476.947  	77.9647
489.876  	77.7516
502.806  	77.0372
515.735  	76.4971
528.664  	77.2154
541.594  	77.4156
554.523  	77.8931
567.452  	79.2449
580.381  	82.1102
593.311  	85.2451
606.24  	86.0617
619.169  	86.7838
632.099  	86.152
645.028  	86.5413
657.957  	74.1758
670.886  	72.7548
683.816  	65.9366
696.745  	65.3209
709.674  	70.4102
722.604  	73.6189
735.533  	66.4915
748.462  	49.855
761.392  	40.9749
774.321  	25.0022
787.25  	8.996053
800.179  	19.3171
813.109  	38.5518
826.038  	56.6434
838.967  	52.909
851.897  	57.8964
864.826  	56.8252
877.755  	74.1056
890.684  	85.2518
903.614  	87.8848
916.543  	89.199
929.472  	91.5474
942.402  	90.4892
955.331  	85.7598
968.26  	77.0844
981.189  	58.8541
994.119  	31.8761
1007.05  	12.5939
1019.98  	17.9765
1032.91  	24.1113
1045.84  	24.5988
1058.77  	24.064
1071.69  	26.3306
1084.62  	32.8662
1097.55  	46.0809
1110.48  	62.4458
1123.41  	74.6807
1136.34  	80.4236
1149.27  	83.9
1162.2  	85.1275
1175.13  	85.6173
1188.06  	86.1377
1200.99  	87.6428
1213.92  	90.6644
1226.85  	92.7526
1239.78  	89.8299
1252.7  	50.6928
1265.63  	68.1426
1278.56  	94.1451
1291.49  	96.7499
1304.42  	97.6518
1317.35  	98.2006
1330.28  	98.5225
1343.21  	98.5659
1356.14  	98.5866
1369.07  	98.3893
1382  	98.093
1394.93  	96.4121
1407.86  	94.4031
1420.79  	95.906
1433.71  	97.8411
1446.64  	97.3834
1459.57  	98.105
1472.5  	98.9725
1485.43  	99.1411
1498.36  	99.1624
1511.29  	99.1818
1524.22  	99.1551
1537.15  	99.3635
1550.08  	99.1263
1563.01  	99.2708
1575.94  	99.2937
1588.87  	99.1224
1601.8  	99.0336
1614.72  	99.2908
1627.65  	99.1609
1640.58  	99.0913
1653.51  	98.8839
1666.44  	99.4764
1679.37  	99.6393
1692.3  	99.722
1705.23  	99.9503
1718.16  	99.7633
1731.09  	100.02
1744.02  	99.939
1756.95  	99.9804
1769.88  	100.08
1782.81  	100.011
1795.73  	100.051
1808.66  	100.26
1821.59  	100.284
1834.52  	100.332
1847.45  	100.291
1860.38  	100.305
1873.31  	100.265
1886.24  	100.306
1899.17  	100.372
1912.1  	100.228
1925.03  	100.215
1937.96  	100.045
1950.89  	100.119
1963.82  	100.351
1976.74  	100.698
1989.67  	100.947
2002.6  	101.373
2015.53  	101.272
2028.46  	101.788
2041.39  	101.082
2054.32  	101.008
2067.25  	100.957
2080.18  	100.806
2093.11  	100.993
2106.04  	100.776
2118.97  	100.936
2131.9  	101.388
2144.83  	100.929
2157.75  	101.729
2170.68  	100.908
2183.61  	100.868
2196.54  	101.078
2209.47  	100.833
2222.4  	100.819
2235.33  	100.845
2248.26  	100.736
2261.19  	100.688
2274.12  	100.624
2287.05  	100.609
2299.98  	100.658
2312.91  	100.65
2325.84  	100.644
2338.76  	100.878
2351.69  	101.176
2364.62  	101.091
2377.55  	100.791
2390.48  	100.8
2403.41  	100.794
2416.34  	100.684
2429.27  	100.675
2442.2  	100.674
2455.13  	100.654
2468.06  	100.658
2480.99  	100.633
2493.92  	100.547
2506.85  	100.6
2519.77  	100.648
2532.7  	100.645
2545.63  	100.668
2558.56  	100.68
2571.49  	100.645
2584.42  	100.676
2597.35  	100.645
2610.28  	100.619
2623.21  	100.593
2636.14  	100.49
2649.07  	100.454
2662  	100.405
2674.93  	100.457
2687.86  	100.489
2700.79  	100.48
2713.71  	100.449
2726.64  	100.464
2739.57  	100.434
2752.5  	100.386
2765.43  	100.3
2778.36  	100.207
2791.29  	99.975
2804.22  	99.8873
2817.15  	99.9074
2830.08  	99.8807
2843.01  	99.7909
2855.94  	99.7236
2868.87  	99.5911
2881.8  	99.2104
2894.72  	98.3224
2907.65  	97.3538
2920.58  	98.5018
2933.51  	98.3825
2946.44  	95.9849
2959.37  	83.641
2972.3  	91.7227
2985.23  	98.1367
2998.16  	99.4142
3011.09  	99.7478
3024.02  	99.8838
3036.95  	99.8749
3049.88  	99.8458
3062.81  	99.9115
3075.73  	99.9847
3088.66  	100.003
3101.59  	99.9913
3114.52  	100.035
3127.45  	100.104
3140.38  	100.134
3153.31  	100.138
3166.24  	100.191
3179.17  	100.248
3192.1  	100.2
3205.03  	100.212
3217.96  	100.283
3230.89  	100.242
3243.82  	100.277
3256.74  	100.15
3269.67  	100.155
3282.6  	100.168
3295.53  	100.215
3308.46  	100.182
3321.39  	100.189
3334.32  	100.237
3347.25  	100.178
3360.18  	100.255
3373.11  	100.263
3386.04  	100.277
3398.97  	100.251
3411.9  	100.26
3424.83  	100.302
3437.75  	100.269
3450.68  	100.299
3463.61  	100.301
3476.54  	100.291
3489.47  	100.329
3502.4  	100.303
3515.33  	100.309
3528.26  	100.344
3541.19  	100.313
3554.12  	100.242
3567.05  	100.38
3579.98  	100.262
3592.91  	100.387
3605.84  	100.438
3618.76  	100.438
3631.69  	100.034
3644.62  	100.481
3657.55  	100.048
3670.48  	100.25
3683.41  	100.334
3696.34  	100.265
3709.27  	100.47
3722.2  	100.388
3735.13  	100.688
3748.06  	100.755
3760.99  	100.184
3773.92  	100.429
3786.85  	100.357
3799.77  	100.818
3812.7  	100.534
3825.63  	100.573
3838.56  	100.331
3851.49  	101.162
3864.42  	100.633
3877.35  	100.624
3890.28  	100.812
3903.21  	100.599
3916.14  	100.715
3929.07  	100.646
3942  	100.62
3954.93  	100.49
3967.86  	100.486
3980.78  	100.468
3993.71  	100.494
3999.46  	100.483